from https://www2.pvlighthouse.com.au/resources/optics/spectrum%20library/spectrum%20library.aspx
Wavelength 	Spectral irradiance 	Cumulative photon flux
nm      	W⋅m–2⋅nm–1 	cm–2⋅s–1
 
300.000	1.01450E-3	7.65593E+10
301.000	1.92500E-3	3.68068E+11
302.000	3.20000E-3	8.54265E+11
303.000	6.87500E-3	1.90229E+12
304.000	9.92500E-3	3.42024E+12
305.000	1.58500E-2	5.85236E+12
306.000	1.91750E-2	8.80432E+12
307.000	2.80250E-2	1.31328E+13
308.000	3.80500E-2	1.90289E+13
309.000	4.13250E-2	2.54532E+13
310.000	5.25250E-2	3.36450E+13
311.000	7.86250E-2	4.59470E+13
312.000	9.21750E-2	6.04155E+13
313.000	0.104925	7.69381E+13
314.000	0.118750	9.56975E+13
315.000	0.130000	1.16299E+14
316.000	0.128500	1.36728E+14
317.000	0.168500	1.63601E+14
318.000	0.179250	1.92279E+14
319.000	0.197000	2.23895E+14
320.000	0.212500	2.58106E+14
321.000	0.245750	2.97793E+14
322.000	0.224250	3.34122E+14
323.000	0.222250	3.70237E+14
324.000	0.270000	4.14249E+14
325.000	0.290250	4.61707E+14
326.000	0.372250	5.22760E+14
327.000	0.396000	5.87907E+14
328.000	0.363750	6.47932E+14
329.000	0.420000	7.17451E+14
330.000	0.458500	7.93572E+14
331.000	0.412000	8.62181E+14
332.000	0.431250	9.34213E+14
333.000	0.425000	1.00541E+15
334.000	0.419500	1.07590E+15
335.000	0.455500	1.15267E+15
336.000	0.415250	1.22287E+15
337.000	0.381500	1.28755E+15
338.000	0.429750	1.36063E+15
339.000	0.462750	1.43955E+15
340.000	0.493000	1.52388E+15
341.000	0.476750	1.60567E+15
342.000	0.487500	1.68955E+15
343.000	0.504250	1.77657E+15
344.000	0.430250	1.85103E+15
345.000	0.451500	1.92939E+15
346.000	0.481250	2.01317E+15
347.000	0.486500	2.09810E+15
348.000	0.476250	2.18148E+15
349.000	0.471750	2.26431E+15
350.000	0.523750	2.35653E+15
351.000	0.548750	2.45344E+15
352.000	0.512250	2.54415E+15
353.000	0.524250	2.63726E+15
354.000	0.596750	2.74354E+15
355.000	0.604750	2.85154E+15
356.000	0.552750	2.95054E+15
357.000	0.472250	3.03536E+15
358.000	0.429250	3.11268E+15
359.000	0.474500	3.19838E+15
360.000	0.580000	3.30342E+15
361.000	0.527500	3.39923E+15
362.000	0.539250	3.49744E+15
363.000	0.591750	3.60551E+15
364.000	0.598250	3.71506E+15
365.000	0.631750	3.83107E+15
366.000	0.721000	3.96383E+15
367.000	0.720750	4.09691E+15
368.000	0.675000	4.22188E+15
369.000	0.696500	4.35118E+15
370.000	0.732500	4.48754E+15
371.000	0.695250	4.61730E+15
372.000	0.676250	4.74387E+15
373.000	0.607750	4.85792E+15
374.000	0.554250	4.96220E+15
375.000	0.594250	5.07432E+15
376.000	0.664500	5.20002E+15
377.000	0.718500	5.33629E+15
378.000	0.833000	5.49471E+15
379.000	0.745250	5.63681E+15
380.000	0.703000	5.77121E+15
381.000	0.739750	5.91300E+15
382.000	0.590500	6.02649E+15
383.000	0.463250	6.11575E+15
384.000	0.516750	6.21558E+15
385.000	0.649500	6.34138E+15
386.000	0.631000	6.46392E+15
387.000	0.646000	6.58970E+15
388.000	0.634500	6.71356E+15
389.000	0.688500	6.84830E+15
390.000	0.787250	7.00276E+15
391.000	0.840000	7.16800E+15
392.000	0.777000	7.32124E+15
393.000	0.499250	7.41995E+15
394.000	0.512500	7.52154E+15
395.000	0.787500	7.67803E+15
396.000	0.728750	7.82322E+15
397.000	0.506750	7.92444E+15
398.000	0.832000	8.09103E+15
399.000	1.06000	8.30381E+15
400.000	1.11375	8.52794E+15
401.000	1.15875	8.76171E+15
402.000	1.19000	9.00239E+15
403.000	1.16750	9.23910E+15
404.000	1.17375	9.47766E+15
405.000	1.15000	9.71198E+15
406.000	1.12125	9.94101E+15
407.000	1.10875	1.01680E+16
408.000	1.15375	1.04049E+16
409.000	1.19750	1.06513E+16
410.000	1.08750	1.08756E+16
411.000	1.16375	1.11162E+16
412.000	1.22500	1.13701E+16
413.000	1.19500	1.16184E+16
414.000	1.18625	1.18655E+16
415.000	1.22000	1.21202E+16
416.000	1.25125	1.23821E+16
417.000	1.22625	1.26394E+16
418.000	1.18375	1.28883E+16
419.000	1.20125	1.31415E+16
420.000	1.15125	1.33848E+16
421.000	1.24875	1.36493E+16
422.000	1.24750	1.39141E+16
423.000	1.21500	1.41727E+16
424.000	1.21500	1.44319E+16
425.000	1.24000	1.46970E+16
426.000	1.21000	1.49563E+16
427.000	1.17625	1.52090E+16
428.000	1.16750	1.54604E+16
429.000	1.07400	1.56922E+16
430.000	0.889250	1.58846E+16
431.000	0.868000	1.60728E+16
432.000	1.24275	1.63429E+16
433.000	1.22875	1.66106E+16
434.000	1.15625	1.68630E+16
435.000	1.24125	1.71347E+16
436.000	1.34875	1.74305E+16
437.000	1.36500	1.77306E+16
438.000	1.23500	1.80028E+16
439.000	1.19875	1.82675E+16
440.000	1.32500	1.85609E+16
441.000	1.34375	1.88590E+16
442.000	1.41125	1.91728E+16
443.000	1.43250	1.94921E+16
444.000	1.41250	1.98076E+16
445.000	1.43375	2.01286E+16
446.000	1.35125	2.04318E+16
447.000	1.46875	2.07621E+16
448.000	1.49875	2.10999E+16
449.000	1.50750	2.14404E+16
450.000	1.55875	2.17933E+16
451.000	1.59500	2.21552E+16
452.000	1.53500	2.25043E+16
453.000	1.45625	2.28362E+16
454.000	1.51625	2.31825E+16
455.000	1.52750	2.35321E+16
456.000	1.56500	2.38912E+16
457.000	1.57500	2.42533E+16
458.000	1.55125	2.46107E+16
459.000	1.53125	2.49643E+16
460.000	1.52875	2.53181E+16
461.000	1.57375	2.56831E+16
462.000	1.59000	2.60527E+16
463.000	1.59250	2.64236E+16
464.000	1.55375	2.67863E+16
465.000	1.53625	2.71457E+16
466.000	1.54750	2.75085E+16
467.000	1.50750	2.78627E+16
468.000	1.55125	2.82280E+16
469.000	1.55250	2.85943E+16
470.000	1.51125	2.89516E+16
471.000	1.53625	2.93157E+16
472.000	1.59250	2.96938E+16
473.000	1.55875	3.00648E+16
474.000	1.56500	3.04380E+16
475.000	1.59750	3.08197E+16
476.000	1.56750	3.11951E+16
477.000	1.57500	3.15731E+16
478.000	1.61000	3.19602E+16
479.000	1.59625	3.23449E+16
480.000	1.60750	3.27331E+16
481.000	1.61125	3.31230E+16
482.000	1.61625	3.35149E+16
483.000	1.59875	3.39034E+16
484.000	1.57250	3.42863E+16
485.000	1.52500	3.46585E+16
486.000	1.32500	3.49824E+16
487.000	1.41625	3.53294E+16
488.000	1.51375	3.57011E+16
489.000	1.48250	3.60658E+16
490.000	1.59125	3.64581E+16
491.000	1.55750	3.68428E+16
492.000	1.50375	3.72150E+16
493.000	1.57125	3.76047E+16
494.000	1.56625	3.79940E+16
495.000	1.61875	3.83971E+16
496.000	1.57375	3.87898E+16
497.000	1.58125	3.91852E+16
498.000	1.55500	3.95748E+16
499.000	1.54875	3.99636E+16
500.000	1.53500	4.03497E+16
501.000	1.49625	4.07269E+16
502.000	1.49875	4.11054E+16
503.000	1.53750	4.14945E+16
504.000	1.47750	4.18691E+16
505.000	1.55375	4.22639E+16
506.000	1.60375	4.26721E+16
507.000	1.55375	4.30684E+16
508.000	1.52375	4.34579E+16
509.000	1.56625	4.38590E+16
510.000	1.54875	4.42563E+16
511.000	1.57125	4.46603E+16
512.000	1.59375	4.50708E+16
513.000	1.52625	4.54647E+16
514.000	1.49125	4.58504E+16
515.000	1.52500	4.62455E+16
516.000	1.50375	4.66359E+16
517.000	1.31750	4.69785E+16
518.000	1.41125	4.73463E+16
519.000	1.41250	4.77151E+16
520.000	1.50500	4.81089E+16
521.000	1.53250	4.85106E+16
522.000	1.54500	4.89163E+16
523.000	1.49625	4.93100E+16
524.000	1.57250	4.97245E+16
525.000	1.56750	5.01386E+16
526.000	1.51125	5.05385E+16
527.000	1.38750	5.09064E+16
528.000	1.51500	5.13088E+16
529.000	1.58375	5.17303E+16
530.000	1.55750	5.21456E+16
531.000	1.60750	5.25750E+16
532.000	1.58000	5.29979E+16
533.000	1.45625	5.33884E+16
534.000	1.51875	5.37964E+16
535.000	1.55625	5.42153E+16
536.000	1.59500	5.46454E+16
537.000	1.51625	5.50551E+16
538.000	1.55500	5.54760E+16
539.000	1.52875	5.58905E+16
540.000	1.47875	5.62922E+16
541.000	1.44375	5.66852E+16
542.000	1.53000	5.71024E+16
543.000	1.53000	5.75204E+16
544.000	1.56000	5.79473E+16
545.000	1.54125	5.83699E+16
546.000	1.52500	5.87888E+16
547.000	1.53250	5.92106E+16
548.000	1.51125	5.96272E+16
549.000	1.54250	6.00533E+16
550.000	1.54000	6.04794E+16
551.000	1.53625	6.09052E+16
552.000	1.55875	6.13381E+16
553.000	1.53000	6.17638E+16
554.000	1.54750	6.21951E+16
555.000	1.55500	6.26293E+16
556.000	1.52875	6.30569E+16
557.000	1.50000	6.34773E+16
558.000	1.51375	6.39022E+16
559.000	1.45500	6.43114E+16
560.000	1.47750	6.47277E+16
561.000	1.53875	6.51620E+16
562.000	1.49750	6.55854E+16
563.000	1.52875	6.60184E+16
564.000	1.51500	6.64483E+16
565.000	1.50750	6.68768E+16
566.000	1.45375	6.72908E+16
567.000	1.51500	6.77229E+16
568.000	1.50875	6.81541E+16
569.000	1.48375	6.85788E+16
570.000	1.47375	6.90014E+16
571.000	1.44625	6.94169E+16
572.000	1.50125	6.98489E+16
573.000	1.51750	7.02864E+16
574.000	1.50625	7.07213E+16
575.000	1.47375	7.11477E+16
576.000	1.46625	7.15726E+16
577.000	1.48875	7.20047E+16
578.000	1.45875	7.24289E+16
579.000	1.47125	7.28575E+16
580.000	1.49625	7.32941E+16
581.000	1.50375	7.37337E+16
582.000	1.52750	7.41809E+16
583.000	1.53875	7.46322E+16
584.000	1.53875	7.50843E+16
585.000	1.52625	7.55335E+16
586.000	1.49875	7.59754E+16
587.000	1.51250	7.64221E+16
588.000	1.46875	7.68566E+16
589.000	1.32500	7.72492E+16
590.000	1.37125	7.76562E+16
591.000	1.44500	7.80859E+16
592.000	1.43625	7.85136E+16
593.000	1.44625	7.89451E+16
594.000	1.44000	7.93754E+16
595.000	1.43625	7.98054E+16
596.000	1.46500	8.02446E+16
597.000	1.46875	8.06858E+16
598.000	1.46125	8.11254E+16
599.000	1.46125	8.15658E+16
600.000	1.46625	8.20084E+16
601.000	1.45000	8.24468E+16
602.000	1.43625	8.28818E+16
603.000	1.46000	8.33247E+16
604.000	1.48625	8.37763E+16
605.000	1.48875	8.42295E+16
606.000	1.48250	8.46815E+16
607.000	1.48750	8.51357E+16
608.000	1.48000	8.55884E+16
609.000	1.47000	8.60388E+16
610.000	1.46125	8.64873E+16
611.000	1.46250	8.69368E+16
612.000	1.47500	8.73910E+16
613.000	1.45625	8.78401E+16
614.000	1.42375	8.82799E+16
615.000	1.45750	8.87308E+16
616.000	1.43250	8.91748E+16
617.000	1.41875	8.96152E+16
618.000	1.45500	9.00676E+16
619.000	1.46875	9.05250E+16
620.000	1.47125	9.09839E+16
621.000	1.47125	9.14435E+16
622.000	1.42625	9.18899E+16
623.000	1.41125	9.23322E+16
624.000	1.40875	9.27744E+16
625.000	1.40125	9.32151E+16
626.000	1.40500	9.36575E+16
627.000	1.42500	9.41071E+16
628.000	1.37625	9.45419E+16
629.000	1.40125	9.49853E+16
630.000	1.39500	9.54275E+16
631.000	1.40125	9.58723E+16
632.000	1.37750	9.63103E+16
633.000	1.43500	9.67673E+16
634.000	1.42625	9.72222E+16
635.000	1.43375	9.76802E+16
636.000	1.42000	9.81346E+16
637.000	1.45500	9.86009E+16
638.000	1.46750	9.90719E+16
639.000	1.45750	9.95405E+16
640.000	1.43375	1.00002E+17
641.000	1.43000	1.00463E+17
642.000	1.43250	1.00926E+17
643.000	1.44625	1.01394E+17
644.000	1.44250	1.01861E+17
645.000	1.44375	1.02330E+17
646.000	1.41375	1.02789E+17
647.000	1.40000	1.03245E+17
648.000	1.38625	1.03697E+17
649.000	1.35625	1.04140E+17
650.000	1.36875	1.04587E+17
651.000	1.42250	1.05053E+17
652.000	1.39375	1.05510E+17
653.000	1.42125	1.05977E+17
654.000	1.40500	1.06440E+17
655.000	1.33625	1.06880E+17
656.000	1.20875	1.07279E+17
657.000	1.25000	1.07692E+17
658.000	1.36375	1.08143E+17
659.000	1.39000	1.08604E+17
660.000	1.39750	1.09068E+17
661.000	1.39000	1.09531E+17
662.000	1.38125	1.09991E+17
663.000	1.38125	1.10451E+17
664.000	1.39250	1.10916E+17
665.000	1.41625	1.11390E+17
666.000	1.41875	1.11866E+17
667.000	1.41125	1.12339E+17
668.000	1.41375	1.12814E+17
669.000	1.43375	1.13297E+17
670.000	1.42125	1.13776E+17
671.000	1.40875	1.14252E+17
672.000	1.39500	1.14723E+17
673.000	1.40625	1.15199E+17
674.000	1.40000	1.15674E+17
675.000	1.39375	1.16147E+17
676.000	1.40625	1.16626E+17
677.000	1.40125	1.17103E+17
678.000	1.39875	1.17580E+17
679.000	1.39125	1.18055E+17
680.000	1.39000	1.18531E+17
681.000	1.39000	1.19007E+17
682.000	1.38875	1.19483E+17
683.000	1.38000	1.19958E+17
684.000	1.37125	1.20430E+17
685.000	1.36625	1.20900E+17
686.000	1.29688	1.21348E+17
687.000	1.03125	1.21704E+17
688.000	1.10063	1.22085E+17
689.000	1.12750	1.22476E+17
690.000	1.17875	1.22885E+17
691.000	1.22875	1.23313E+17
692.000	1.26375	1.23753E+17
693.000	1.25875	1.24191E+17
694.000	1.24625	1.24627E+17
695.000	1.26500	1.25069E+17
696.000	1.27125	1.25514E+17
697.000	1.32750	1.25979E+17
698.000	1.31875	1.26443E+17
699.000	1.29250	1.26897E+17
700.000	1.27875	1.27347E+17
701.000	1.26250	1.27793E+17
702.000	1.26125	1.28238E+17
703.000	1.27250	1.28688E+17
704.000	1.29875	1.29148E+17
705.000	1.31625	1.29615E+17
706.000	1.31125	1.30081E+17
707.000	1.30875	1.30546E+17
708.000	1.30250	1.31010E+17
709.000	1.30875	1.31477E+17
710.000	1.31000	1.31945E+17
711.000	1.30875	1.32413E+17
712.000	1.30000	1.32879E+17
713.000	1.29250	1.33342E+17
714.000	1.29375	1.33807E+17
715.000	1.26625	1.34263E+17
716.000	1.24750	1.34712E+17
717.000	1.11250	1.35113E+17
718.000	1.02513	1.35484E+17
719.000	0.942375	1.35825E+17
720.000	0.987375	1.36182E+17
721.000	1.08788	1.36577E+17
722.000	1.20750	1.37015E+17
723.000	1.14125	1.37431E+17
724.000	1.06000	1.37817E+17
725.000	1.04625	1.38198E+17
726.000	1.07500	1.38591E+17
727.000	1.07500	1.38984E+17
728.000	1.04500	1.39367E+17
729.000	1.05125	1.39752E+17
730.000	1.11125	1.40161E+17
731.000	1.08750	1.40560E+17
732.000	1.14500	1.40982E+17
733.000	1.19000	1.41421E+17
734.000	1.22250	1.41872E+17
735.000	1.21125	1.42320E+17
736.000	1.20125	1.42765E+17
737.000	1.20250	1.43211E+17
738.000	1.21375	1.43662E+17
739.000	1.19750	1.44107E+17
740.000	1.21500	1.44559E+17
741.000	1.21125	1.45011E+17
742.000	1.21375	1.45464E+17
743.000	1.23750	1.45926E+17
744.000	1.24875	1.46394E+17
745.000	1.24875	1.46862E+17
746.000	1.24125	1.47328E+17
747.000	1.24000	1.47794E+17
748.000	1.23875	1.48260E+17
749.000	1.23125	1.48724E+17
750.000	1.23000	1.49188E+17
751.000	1.23000	1.49653E+17
752.000	1.22875	1.50118E+17
753.000	1.22375	1.50581E+17
754.000	1.23625	1.51050E+17
755.000	1.23000	1.51517E+17
756.000	1.22125	1.51982E+17
757.000	1.22125	1.52447E+17
758.000	1.22375	1.52914E+17
759.000	1.07938	1.53326E+17
760.000	0.366750	1.53466E+17
761.000	0.234375	1.53556E+17
762.000	0.581000	1.53778E+17
763.000	0.436375	1.53946E+17
764.000	0.535500	1.54152E+17
765.000	0.681625	1.54414E+17
766.000	0.815875	1.54729E+17
767.000	0.968500	1.55102E+17
768.000	1.09388	1.55525E+17
769.000	1.12375	1.55960E+17
770.000	1.15625	1.56408E+17
771.000	1.16875	1.56861E+17
772.000	1.17000	1.57315E+17
773.000	1.17000	1.57770E+17
774.000	1.17000	1.58226E+17
775.000	1.17125	1.58683E+17
776.000	1.17750	1.59142E+17
777.000	1.17125	1.59600E+17
778.000	1.17000	1.60058E+17
779.000	1.16875	1.60516E+17
780.000	1.16125	1.60972E+17
781.000	1.16000	1.61428E+17
782.000	1.16000	1.61884E+17
783.000	1.15875	1.62341E+17
784.000	1.15250	1.62795E+17
785.000	1.15875	1.63253E+17
786.000	1.15750	1.63710E+17
787.000	1.14125	1.64162E+17
788.000	1.13000	1.64610E+17
789.000	1.11750	1.65054E+17
790.000	1.09500	1.65489E+17
791.000	1.09750	1.65926E+17
792.000	1.09000	1.66360E+17
793.000	1.08250	1.66792E+17
794.000	1.08875	1.67227E+17
795.000	1.08750	1.67662E+17
796.000	1.07500	1.68092E+17
797.000	1.09000	1.68530E+17
798.000	1.10500	1.68973E+17
799.000	1.09000	1.69411E+17
800.000	1.07375	1.69843E+17
801.000	1.07875	1.70278E+17
802.000	1.07750	1.70713E+17
803.000	1.06500	1.71143E+17
804.000	1.07375	1.71578E+17
805.000	1.05875	1.72006E+17
806.000	1.08375	1.72446E+17
807.000	1.08125	1.72885E+17
808.000	1.07625	1.73322E+17
809.000	1.05375	1.73751E+17
810.000	1.05000	1.74179E+17
811.000	1.04625	1.74606E+17
812.000	1.02250	1.75024E+17
813.000	0.997625	1.75432E+17
814.000	0.913625	1.75806E+17
815.000	0.886125	1.76169E+17
816.000	0.840250	1.76514E+17
817.000	0.843000	1.76861E+17
818.000	0.834000	1.77204E+17
819.000	0.887125	1.77569E+17
820.000	0.881500	1.77933E+17
821.000	0.972250	1.78335E+17
822.000	0.920000	1.78715E+17
823.000	0.738375	1.79021E+17
824.000	0.903750	1.79395E+17
825.000	0.958125	1.79793E+17
826.000	0.941875	1.80185E+17
827.000	0.958750	1.80583E+17
828.000	0.873875	1.80947E+17
829.000	0.915250	1.81329E+17
830.000	0.915750	1.81712E+17
831.000	0.916375	1.82095E+17
832.000	0.903375	1.82473E+17
833.000	0.943375	1.82868E+17
834.000	0.942500	1.83264E+17
835.000	0.987625	1.83679E+17
836.000	0.978750	1.84090E+17
837.000	1.00325	1.84513E+17
838.000	0.998000	1.84933E+17
839.000	0.999250	1.85355E+17
840.000	1.00850	1.85781E+17
841.000	1.00800	1.86208E+17
842.000	0.996750	1.86630E+17
843.000	0.997125	1.87053E+17
844.000	0.988500	1.87473E+17
845.000	1.00788	1.87901E+17
846.000	1.01488	1.88333E+17
847.000	0.992875	1.88756E+17
848.000	0.988250	1.89178E+17
849.000	0.972250	1.89593E+17
850.000	0.912625	1.89983E+17
851.000	0.961250	1.90395E+17
852.000	0.967000	1.90809E+17
853.000	0.948500	1.91217E+17
854.000	0.870750	1.91591E+17
855.000	0.909875	1.91982E+17
856.000	0.964875	1.92398E+17
857.000	0.986625	1.92823E+17
858.000	0.989000	1.93250E+17
859.000	0.988500	1.93677E+17
860.000	0.985375	1.94103E+17
861.000	0.985125	1.94530E+17
862.000	0.991750	1.94960E+17
863.000	0.994500	1.95392E+17
864.000	0.976750	1.95817E+17
865.000	0.947875	1.96229E+17
866.000	0.869375	1.96608E+17
867.000	0.910125	1.97005E+17
868.000	0.949500	1.97419E+17
869.000	0.950375	1.97835E+17
870.000	0.961000	1.98256E+17
871.000	0.954375	1.98674E+17
872.000	0.961125	1.99095E+17
873.000	0.953250	1.99514E+17
874.000	0.938250	1.99927E+17
875.000	0.929000	2.00336E+17
876.000	0.947125	2.00753E+17
877.000	0.952250	2.01173E+17
878.000	0.948375	2.01592E+17
879.000	0.936375	2.02006E+17
880.000	0.932750	2.02419E+17
881.000	0.912875	2.02824E+17
882.000	0.926625	2.03235E+17
883.000	0.927750	2.03647E+17
884.000	0.931125	2.04061E+17
885.000	0.935875	2.04478E+17
886.000	0.910000	2.04884E+17
887.000	0.909125	2.05289E+17
888.000	0.920000	2.05700E+17
889.000	0.929125	2.06116E+17
890.000	0.922625	2.06529E+17
891.000	0.920625	2.06942E+17
892.000	0.903750	2.07347E+17
893.000	0.872625	2.07739E+17
894.000	0.847000	2.08120E+17
895.000	0.809375	2.08485E+17
896.000	0.754375	2.08825E+17
897.000	0.682500	2.09133E+17
898.000	0.688375	2.09444E+17
899.000	0.592250	2.09712E+17
900.000	0.698125	2.10028E+17
901.000	0.624250	2.10311E+17
902.000	0.660125	2.10610E+17
903.000	0.703750	2.10930E+17
904.000	0.819250	2.11302E+17
905.000	0.813125	2.11673E+17
906.000	0.761250	2.12020E+17
907.000	0.655625	2.12319E+17
908.000	0.654875	2.12618E+17
909.000	0.685625	2.12932E+17
910.000	0.638250	2.13224E+17
911.000	0.663250	2.13528E+17
912.000	0.676875	2.13838E+17
913.000	0.634250	2.14130E+17
914.000	0.631625	2.14420E+17
915.000	0.657000	2.14723E+17
916.000	0.606750	2.15002E+17
917.000	0.691750	2.15321E+17
918.000	0.626375	2.15611E+17
919.000	0.719375	2.15943E+17
920.000	0.745875	2.16288E+17
921.000	0.763500	2.16642E+17
922.000	0.713625	2.16973E+17
923.000	0.734375	2.17314E+17
924.000	0.720750	2.17649E+17
925.000	0.709250	2.17979E+17
926.000	0.712500	2.18311E+17
927.000	0.749875	2.18661E+17
928.000	0.607875	2.18945E+17
929.000	0.539875	2.19197E+17
930.000	0.443000	2.19404E+17
931.000	0.397375	2.19590E+17
932.000	0.307000	2.19734E+17
933.000	0.241375	2.19848E+17
934.000	0.169500	2.19927E+17
935.000	0.225500	2.20033E+17
936.000	0.172375	2.20115E+17
937.000	0.167375	2.20194E+17
938.000	0.220125	2.20297E+17
939.000	0.382250	2.20478E+17
940.000	0.448625	2.20690E+17
941.000	0.387500	2.20874E+17
942.000	0.384125	2.21056E+17
943.000	0.294625	2.21195E+17
944.000	0.294375	2.21335E+17
945.000	0.335125	2.21495E+17
946.000	0.237625	2.21608E+17
947.000	0.335875	2.21768E+17
948.000	0.312625	2.21917E+17
949.000	0.422250	2.22118E+17
950.000	0.232125	2.22229E+17
951.000	0.413375	2.22427E+17
952.000	0.304125	2.22573E+17
953.000	0.343625	2.22738E+17
954.000	0.402625	2.22931E+17
955.000	0.348750	2.23098E+17
956.000	0.321500	2.23253E+17
957.000	0.300875	2.23398E+17
958.000	0.425375	2.23603E+17
959.000	0.389625	2.23791E+17
960.000	0.418375	2.23993E+17
961.000	0.452500	2.24212E+17
962.000	0.451250	2.24430E+17
963.000	0.490250	2.24668E+17
964.000	0.468500	2.24895E+17
965.000	0.496250	2.25136E+17
966.000	0.501125	2.25379E+17
967.000	0.519625	2.25632E+17
968.000	0.635625	2.25942E+17
969.000	0.673375	2.26270E+17
970.000	0.649250	2.26587E+17
971.000	0.698875	2.26928E+17
972.000	0.679125	2.27260E+17
973.000	0.611250	2.27559E+17
974.000	0.579625	2.27843E+17
975.000	0.584000	2.28130E+17
976.000	0.580625	2.28415E+17
977.000	0.625625	2.28723E+17
978.000	0.618875	2.29027E+17
979.000	0.629000	2.29337E+17
980.000	0.620625	2.29643E+17
981.000	0.694875	2.29986E+17
982.000	0.689750	2.30327E+17
983.000	0.678375	2.30662E+17
984.000	0.720375	2.31019E+17
985.000	0.700000	2.31366E+17
986.000	0.739625	2.31732E+17
987.000	0.738000	2.32099E+17
988.000	0.735250	2.32464E+17
989.000	0.743125	2.32834E+17
990.000	0.734750	2.33200E+17
991.000	0.748125	2.33573E+17
992.000	0.747500	2.33946E+17
993.000	0.738875	2.34315E+17
994.000	0.749625	2.34690E+17
995.000	0.749875	2.35066E+17
996.000	0.746250	2.35439E+17
997.000	0.739000	2.35810E+17
998.000	0.737000	2.36180E+17
999.000	0.735750	2.36550E+17
1000.00	0.734500	2.36919E+17
1001.00	0.738875	2.37292E+17
1002.00	0.728750	2.37659E+17
1003.00	0.729875	2.38027E+17
1004.00	0.717250	2.38390E+17
1005.00	0.689000	2.38738E+17
1006.00	0.708875	2.39097E+17
1007.00	0.723250	2.39463E+17
1008.00	0.724125	2.39830E+17
1009.00	0.718750	2.40195E+17
1010.00	0.717625	2.40560E+17
1011.00	0.720000	2.40926E+17
1012.00	0.717375	2.41291E+17
1013.00	0.716500	2.41656E+17
1014.00	0.717000	2.42022E+17
1015.00	0.708000	2.42384E+17
1016.00	0.707625	2.42745E+17
1017.00	0.703375	2.43105E+17
1018.00	0.707500	2.43468E+17
1019.00	0.691375	2.43822E+17
1020.00	0.696125	2.44179E+17
1021.00	0.698125	2.44538E+17
1022.00	0.690125	2.44893E+17
1023.00	0.691875	2.45249E+17
1024.00	0.690375	2.45605E+17
1025.00	0.694875	2.45963E+17
1026.00	0.693875	2.46321E+17
1027.00	0.691500	2.46678E+17
1028.00	0.690875	2.47036E+17
1029.00	0.685625	2.47391E+17
1030.00	0.687875	2.47747E+17
1031.00	0.685625	2.48103E+17
1032.00	0.684375	2.48458E+17
1033.00	0.676000	2.48809E+17
1034.00	0.677750	2.49162E+17
1035.00	0.679750	2.49516E+17
1036.00	0.679125	2.49870E+17
1037.00	0.673500	2.50221E+17
1038.00	0.670875	2.50572E+17
1039.00	0.673000	2.50923E+17
1040.00	0.670500	2.51274E+17
1041.00	0.670000	2.51625E+17
1042.00	0.669125	2.51976E+17
1043.00	0.664250	2.52324E+17
1044.00	0.665250	2.52674E+17
1045.00	0.661125	2.53021E+17
1046.00	0.648500	2.53363E+17
1047.00	0.654500	2.53707E+17
1048.00	0.659750	2.54055E+17
1049.00	0.657000	2.54402E+17
1050.00	0.653500	2.54747E+17
1051.00	0.652500	2.55092E+17
1052.00	0.649250	2.55436E+17
1053.00	0.647000	2.55779E+17
1054.00	0.645500	2.56121E+17
1055.00	0.646500	2.56464E+17
1056.00	0.645000	2.56807E+17
1057.00	0.642375	2.57148E+17
1058.00	0.634500	2.57486E+17
1059.00	0.621500	2.57817E+17
1060.00	0.630000	2.58153E+17
1061.00	0.622375	2.58485E+17
1062.00	0.628250	2.58821E+17
1063.00	0.623375	2.59154E+17
1064.00	0.628500	2.59491E+17
1065.00	0.625875	2.59826E+17
1066.00	0.617000	2.60157E+17
1067.00	0.618375	2.60489E+17
1068.00	0.614000	2.60819E+17
1069.00	0.591375	2.61137E+17
1070.00	0.602250	2.61461E+17
1071.00	0.613375	2.61792E+17
1072.00	0.612625	2.62122E+17
1073.00	0.605750	2.62449E+17
1074.00	0.614125	2.62781E+17
1075.00	0.597375	2.63104E+17
1076.00	0.609000	2.63434E+17
1077.00	0.604125	2.63761E+17
1078.00	0.602250	2.64088E+17
1079.00	0.602000	2.64414E+17
1080.00	0.594750	2.64738E+17
1081.00	0.582250	2.65054E+17
1082.00	0.587875	2.65374E+17
1083.00	0.592625	2.65697E+17
1084.00	0.581250	2.66014E+17
1085.00	0.585250	2.66334E+17
1086.00	0.559375	2.66639E+17
1087.00	0.566750	2.66949E+17
1088.00	0.586125	2.67270E+17
1089.00	0.576625	2.67586E+17
1090.00	0.561125	2.67894E+17
1091.00	0.582000	2.68213E+17
1092.00	0.572000	2.68527E+17
1093.00	0.521500	2.68814E+17
1094.00	0.532000	2.69107E+17
1095.00	0.519250	2.69393E+17
1096.00	0.513500	2.69676E+17
1097.00	0.558250	2.69984E+17
1098.00	0.511875	2.70267E+17
1099.00	0.502750	2.70545E+17
1100.00	0.488250	2.70815E+17
1101.00	0.491000	2.71087E+17
1102.00	0.471125	2.71348E+17
1103.00	0.465500	2.71607E+17
1104.00	0.470750	2.71868E+17
1105.00	0.486625	2.72139E+17
1106.00	0.421125	2.72373E+17
1107.00	0.462875	2.72631E+17
1108.00	0.422250	2.72866E+17
1109.00	0.420500	2.73101E+17
1110.00	0.451375	2.73353E+17
1111.00	0.359500	2.73554E+17
1112.00	0.383875	2.73769E+17
1113.00	0.289875	2.73931E+17
1114.00	0.288875	2.74093E+17
1115.00	0.249250	2.74233E+17
1116.00	0.191800	2.74340E+17
1117.00	0.111800	2.74403E+17
1118.00	0.186800	2.74508E+17
1119.00	0.129625	2.74581E+17
1120.00	0.143750	2.74662E+17
1121.00	0.166675	2.74756E+17
1122.00	0.100175	2.74813E+17
1123.00	0.119675	2.74880E+17
1124.00	0.115000	2.74945E+17
1125.00	0.127925	2.75018E+17
1126.00	7.61750E-2	2.75061E+17
1127.00	0.136538	2.75138E+17
1128.00	0.107050	2.75199E+17
1129.00	0.100663	2.75256E+17
1130.00	0.102925	2.75315E+17
1131.00	0.259175	2.75462E+17
1132.00	0.230750	2.75594E+17
1133.00	0.149075	2.75679E+17
1134.00	5.22500E-2	2.75708E+17
1135.00	3.27500E-2	2.75727E+17
1136.00	0.133800	2.75804E+17
1137.00	0.256625	2.75950E+17
1138.00	0.225375	2.76079E+17
1139.00	0.280750	2.76240E+17
1140.00	0.252625	2.76385E+17
1141.00	0.204625	2.76503E+17
1142.00	0.231000	2.76635E+17
1143.00	0.275375	2.76794E+17
1144.00	0.141875	2.76875E+17
1145.00	0.143250	2.76958E+17
1146.00	0.143375	2.77041E+17
1147.00	9.76250E-2	2.77097E+17
1148.00	0.237125	2.77234E+17
1149.00	0.212375	2.77357E+17
1150.00	0.143375	2.77440E+17
1151.00	0.198250	2.77554E+17
1152.00	0.240250	2.77694E+17
1153.00	0.226375	2.77825E+17
1154.00	0.175125	2.77927E+17
1155.00	0.286750	2.78093E+17
1156.00	0.288250	2.78261E+17
1157.00	0.309375	2.78441E+17
1158.00	0.314500	2.78624E+17
1159.00	0.326625	2.78815E+17
1160.00	0.299875	2.78990E+17
1161.00	0.339625	2.79188E+17
1162.00	0.363500	2.79400E+17
1163.00	0.444000	2.79660E+17
1164.00	0.407625	2.79899E+17
1165.00	0.387875	2.80126E+17
1166.00	0.380125	2.80349E+17
1167.00	0.405750	2.80588E+17
1168.00	0.417375	2.80833E+17
1169.00	0.425875	2.81083E+17
1170.00	0.451375	2.81349E+17
1171.00	0.449125	2.81614E+17
1172.00	0.453250	2.81881E+17
1173.00	0.440000	2.82140E+17
1174.00	0.365250	2.82356E+17
1175.00	0.439625	2.82616E+17
1176.00	0.471500	2.82895E+17
1177.00	0.457500	2.83166E+17
1178.00	0.388375	2.83396E+17
1179.00	0.461250	2.83670E+17
1180.00	0.446250	2.83935E+17
1181.00	0.435625	2.84193E+17
1182.00	0.352875	2.84403E+17
1183.00	0.420375	2.84653E+17
1184.00	0.419625	2.84903E+17
1185.00	0.416375	2.85152E+17
1186.00	0.464500	2.85429E+17
1187.00	0.441750	2.85693E+17
1188.00	0.359125	2.85907E+17
1189.00	0.410625	2.86153E+17
1190.00	0.453250	2.86424E+17
1191.00	0.450375	2.86694E+17
1192.00	0.466250	2.86974E+17
1193.00	0.457250	2.87248E+17
1194.00	0.463375	2.87527E+17
1195.00	0.446750	2.87795E+17
1196.00	0.437750	2.88058E+17
1197.00	0.464875	2.88338E+17
1198.00	0.429750	2.88597E+17
1199.00	0.383000	2.88828E+17
1200.00	0.435250	2.88960E+17
